<?xml version="1.0" encoding="UTF-8"?>

<Bundle xmlns="http://hl7.org/fhir">
  <id value="100-multiitem-prescription-with-orchestration"/>
  <type value="collection"/>
  <entry>
    <fullUrl value="https://example.com/RequestOrchestration/100-RequestOrchestration"/>
    <resource>
      <RequestOrchestration>
        <id value="100-RequestOrchestration"/>
        <text>
          <status value="generated"/><div xmlns="http://www.w3.org/1999/xhtml"><a name="RequestOrchestration_100-RequestOrchestration"> </a><p class="res-header-id"><b>Generated Narrative: RequestOrchestration 100-RequestOrchestration</b></p><a name="100-RequestOrchestration"> </a><a name="hc100-RequestOrchestration"> </a><a name="100-RequestOrchestration-en-US"> </a><p><b>identifier</b>: <code>http://example.com/requestorchestration</code>/prescr1</p><p><b>groupIdentifier</b>: <code>http://example.com/prescriptions</code>/100</p><p><b>status</b>: Active</p><p><b>intent</b>: Order</p><p><b>subject</b>: <a href="Patient-patient1.html">Thomas Engine  Male, DoB: 1950-09-15 ( 12345)</a></p><blockquote><p><b>action</b></p><blockquote><p><b>id</b></p>1</blockquote><blockquote><p><b>relatedAction</b></p><p><b>targetId</b>: 2</p><p><b>relationship</b>: Concurrent With Start</p></blockquote><blockquote><p><b>relatedAction</b></p><p><b>targetId</b>: 3</p><p><b>relationship</b>: Concurrent With Start</p></blockquote><p><b>resource</b>: <a href="MedicationRequest-100-3-medication-prescription-request1.html">MedicationRequest: identifier = 100-1/3; groupIdentifier = 100; status = active; intent = order; authoredOn = 2024-10-03</a></p></blockquote><blockquote><p><b>action</b></p><blockquote><p><b>id</b></p>2</blockquote><blockquote><p><b>relatedAction</b></p><p><b>targetId</b>: 1</p><p><b>relationship</b>: Concurrent With Start</p></blockquote><blockquote><p><b>relatedAction</b></p><p><b>targetId</b>: 3</p><p><b>relationship</b>: Concurrent With Start</p></blockquote><p><b>resource</b>: <a href="MedicationRequest-100-3-medication-prescription-request2.html">MedicationRequest: identifier = 100-2/3; groupIdentifier = 100; status = active; intent = order; authoredOn = 2024-10-03</a></p></blockquote><blockquote><p><b>action</b></p><blockquote><p><b>id</b></p>3</blockquote><blockquote><p><b>relatedAction</b></p><p><b>targetId</b>: 1</p><p><b>relationship</b>: Concurrent With Start</p></blockquote><blockquote><p><b>relatedAction</b></p><p><b>targetId</b>: 2</p><p><b>relationship</b>: Concurrent With Start</p></blockquote><p><b>resource</b>: <a href="MedicationRequest-100-3-medication-prescription-request1.html">MedicationRequest: identifier = 100-1/3; groupIdentifier = 100; status = active; intent = order; authoredOn = 2024-10-03</a></p></blockquote></div>
        </text>
        <identifier>
          <system value="http://example.com/requestorchestration"/>
          <value value="prescr1"/>
        </identifier>
        <groupIdentifier>
          <system value="http://example.com/prescriptions"/>
          <value value="100"/>
        </groupIdentifier>
        <status value="active"/>
        <intent value="order"/>
        <subject>
          <reference value="Patient/patient1"/>
        </subject>
        <action id="1">
          <relatedAction>
            <targetId value="2"/>
            <relationship value="concurrent-with-start"/>
          </relatedAction>
          <relatedAction>
            <targetId value="3"/>
            <relationship value="concurrent-with-start"/>
          </relatedAction>
          <resource>
            <reference value="MedicationRequest/100-3-medication-prescription-request1"/>
          </resource>
        </action>
        <action id="2">
          <relatedAction>
            <targetId value="1"/>
            <relationship value="concurrent-with-start"/>
          </relatedAction>
          <relatedAction>
            <targetId value="3"/>
            <relationship value="concurrent-with-start"/>
          </relatedAction>
          <resource>
            <reference value="MedicationRequest/100-3-medication-prescription-request2"/>
          </resource>
        </action>
        <action id="3">
          <relatedAction>
            <targetId value="1"/>
            <relationship value="concurrent-with-start"/>
          </relatedAction>
          <relatedAction>
            <targetId value="2"/>
            <relationship value="concurrent-with-start"/>
          </relatedAction>
          <resource>
            <reference value="MedicationRequest/100-3-medication-prescription-request1"/>
          </resource>
        </action>
      </RequestOrchestration>
    </resource>
  </entry>
  <entry>
    <fullUrl value="https://example.com/MedicationRequest/100-3-medication-prescription-request1"/>
    <resource>
      <MedicationRequest>
        <id value="100-3-medication-prescription-request1"/>
        <meta>
          <profile value="http://profiles.ihe.net/PHARM/MPD/StructureDefinition/IHEMedicationPrescription"/>
        </meta>
        <text>
          <status value="generated"/><div xmlns="http://www.w3.org/1999/xhtml"><a name="MedicationRequest_100-3-medication-prescription-request1"> </a><p class="res-header-id"><b>Generated Narrative: MedicationRequest 100-3-medication-prescription-request1</b></p><a name="100-3-medication-prescription-request1"> </a><a name="hc100-3-medication-prescription-request1"> </a><a name="100-3-medication-prescription-request1-en-US"> </a><div style="display: inline-block; background-color: #d9e0e7; padding: 6px; margin: 4px; border: 1px solid #8da1b4; border-radius: 5px; line-height: 60%"><p style="margin-bottom: 0px"/><p style="margin-bottom: 0px">Profile: <a href="StructureDefinition-IHEMedicationPrescription.html">IHE Medication Prescription</a></p></div><p><b>identifier</b>: 100-1/3</p><p><b>groupIdentifier</b>: 100</p><p><b>status</b>: Active</p><p><b>intent</b>: Order</p><h3>Medications</h3><table class="grid"><tr><td style="display: none">-</td><td><b>Concept</b></td></tr><tr><td style="display: none">*</td><td><span title="Codes:{http://snomed.info/sct 376255008}">Thalidomide 50 mg oral capsule</span></td></tr></table><p><b>subject</b>: <a href="Patient-patient1.html">Thomas Engine  Male, DoB: 1950-09-15 ( 12345)</a></p><p><b>authoredOn</b>: 2024-10-03</p><p><b>requester</b>: <a href="PractitionerRole-doctor1.html">PractitionerRole Clinical oncologist</a></p><h3>Reasons</h3><table class="grid"><tr><td style="display: none">-</td><td><b>Concept</b></td></tr><tr><td style="display: none">*</td><td><span title="Codes:{http://snomed.info/sct 109989006}">Multiple myeloma</span></td></tr></table><blockquote><p><b>dosageInstruction</b></p><p><b>timing</b>: Late Evening, Once per 1 day</p><h3>DoseAndRates</h3><table class="grid"><tr><td style="display: none">-</td><td><b>Dose[x]</b></td></tr><tr><td style="display: none">*</td><td>4 Tablet<span style="background: LightGoldenRodYellow"> (Details: SNOMED CT  code732936001 = 'Tablet (unit of presentation)')</span></td></tr></table></blockquote><h3>DispenseRequests</h3><table class="grid"><tr><td style="display: none">-</td><td><b>ValidityPeriod</b></td><td><b>NumberOfRepeatsAllowed</b></td><td><b>Quantity</b></td></tr><tr><td style="display: none">*</td><td>2024-10-03 --&gt; 2024-12-03</td><td>1</td><td>168 Tablet<span style="background: LightGoldenRodYellow"> (Details: SNOMED CT  code732936001 = 'Tablet (unit of presentation)')</span></td></tr></table></div>
        </text>
        <identifier>
          <value value="100-1/3"/>
        </identifier>
        <groupIdentifier>
          <value value="100"/>
        </groupIdentifier>
        <status value="active"/>
        <intent value="order"/>
        <medication>
          <concept>
            <coding>
              <system value="http://snomed.info/sct"/>
              <code value="376255008"/>
              <display value="Thalidomide 50 mg oral capsule"/>
            </coding>
          </concept>
        </medication>
        <subject>
          <reference value="Patient/patient1"/>
        </subject>
        <authoredOn value="2024-10-03"/>
        <requester>
          <reference value="PractitionerRole/doctor1"/>
        </requester>
        <reason>
          <concept>
            <coding>
              <system value="http://snomed.info/sct"/>
              <code value="109989006"/>
              <display value="Multiple myeloma"/>
            </coding>
          </concept>
        </reason>
        <dosageInstruction>
          <timing>
            <repeat>
              <boundsDuration>
                <value value="42"/>
                <unit value="day"/>
                <system value="http://unitsofmeasure.org"/>
                <code value="d"/>
              </boundsDuration>
              <frequency value="1"/>
              <period value="1"/>
              <periodUnit value="d"/>
              <when value="EVE.late"/>
            </repeat>
          </timing>
          <doseAndRate>
            <doseQuantity>
              <value value="4"/>
              <unit value="Tablet"/>
              <system value="http://snomed.info/sct"/>
              <code value="732936001"/>
            </doseQuantity>
          </doseAndRate>
        </dosageInstruction>
        <dispenseRequest>
          <validityPeriod>
            <start value="2024-10-03"/>
            <end value="2024-12-03"/>
          </validityPeriod>
          <numberOfRepeatsAllowed value="1"/>
          <quantity>
            <value value="168"/>
            <unit value="Tablet"/>
            <system value="http://snomed.info/sct"/>
            <code value="732936001"/>
          </quantity>
        </dispenseRequest>
      </MedicationRequest>
    </resource>
  </entry>
  <entry>
    <fullUrl value="https://example.com/MedicationRequest/100-3-medication-prescription-request2"/>
    <resource>
      <MedicationRequest>
        <id value="100-3-medication-prescription-request2"/>
        <meta>
          <profile value="http://profiles.ihe.net/PHARM/MPD/StructureDefinition/IHEMedicationPrescription"/>
        </meta>
        <text>
          <status value="generated"/><div xmlns="http://www.w3.org/1999/xhtml"><a name="MedicationRequest_100-3-medication-prescription-request2"> </a><p class="res-header-id"><b>Generated Narrative: MedicationRequest 100-3-medication-prescription-request2</b></p><a name="100-3-medication-prescription-request2"> </a><a name="hc100-3-medication-prescription-request2"> </a><a name="100-3-medication-prescription-request2-en-US"> </a><div style="display: inline-block; background-color: #d9e0e7; padding: 6px; margin: 4px; border: 1px solid #8da1b4; border-radius: 5px; line-height: 60%"><p style="margin-bottom: 0px"/><p style="margin-bottom: 0px">Profile: <a href="StructureDefinition-IHEMedicationPrescription.html">IHE Medication Prescription</a></p></div><p><b>identifier</b>: 100-2/3</p><p><b>groupIdentifier</b>: 100</p><p><b>status</b>: Active</p><p><b>intent</b>: Order</p><h3>Medications</h3><table class="grid"><tr><td style="display: none">-</td><td><b>Concept</b></td></tr><tr><td style="display: none">*</td><td><span title="Codes:{http://snomed.info/sct 326766003}">Melphalan 2 mg oral tablet</span></td></tr></table><p><b>subject</b>: <a href="Patient-patient1.html">Thomas Engine  Male, DoB: 1950-09-15 ( 12345)</a></p><p><b>authoredOn</b>: 2024-10-03</p><p><b>requester</b>: <a href="PractitionerRole-doctor1.html">PractitionerRole Clinical oncologist</a></p><h3>Reasons</h3><table class="grid"><tr><td style="display: none">-</td><td><b>Concept</b></td></tr><tr><td style="display: none">*</td><td><span title="Codes:{http://snomed.info/sct 109989006}">Multiple myeloma</span></td></tr></table><blockquote><p><b>dosageInstruction</b></p><p><b>timing</b>: Once per 1 day</p><h3>DoseAndRates</h3><table class="grid"><tr><td style="display: none">-</td><td><b>Dose[x]</b></td></tr><tr><td style="display: none">*</td><td>4 Tablet<span style="background: LightGoldenRodYellow"> (Details: SNOMED CT  code732936001 = 'Tablet (unit of presentation)')</span></td></tr></table></blockquote><h3>DispenseRequests</h3><table class="grid"><tr><td style="display: none">-</td><td><b>ValidityPeriod</b></td><td><b>NumberOfRepeatsAllowed</b></td><td><b>Quantity</b></td></tr><tr><td style="display: none">*</td><td>2024-10-03 --&gt; 2024-12-03</td><td>1</td><td>16 Tablet<span style="background: LightGoldenRodYellow"> (Details: SNOMED CT  code732936001 = 'Tablet (unit of presentation)')</span></td></tr></table></div>
        </text>
        <identifier>
          <value value="100-2/3"/>
        </identifier>
        <groupIdentifier>
          <value value="100"/>
        </groupIdentifier>
        <status value="active"/>
        <intent value="order"/>
        <medication>
          <concept>
            <coding>
              <system value="http://snomed.info/sct"/>
              <code value="326766003"/>
              <display value="Melphalan 2 mg oral tablet"/>
            </coding>
          </concept>
        </medication>
        <subject>
          <reference value="Patient/patient1"/>
        </subject>
        <authoredOn value="2024-10-03"/>
        <requester>
          <reference value="PractitionerRole/doctor1"/>
        </requester>
        <reason>
          <concept>
            <coding>
              <system value="http://snomed.info/sct"/>
              <code value="109989006"/>
              <display value="Multiple myeloma"/>
            </coding>
          </concept>
        </reason>
        <dosageInstruction>
          <timing>
            <repeat>
              <boundsDuration>
                <value value="4"/>
                <unit value="day"/>
                <system value="http://unitsofmeasure.org"/>
                <code value="d"/>
              </boundsDuration>
              <frequency value="1"/>
              <period value="1"/>
              <periodUnit value="d"/>
            </repeat>
          </timing>
          <doseAndRate>
            <doseQuantity>
              <value value="4"/>
              <unit value="Tablet"/>
              <system value="http://snomed.info/sct"/>
              <code value="732936001"/>
            </doseQuantity>
          </doseAndRate>
        </dosageInstruction>
        <dispenseRequest>
          <validityPeriod>
            <start value="2024-10-03"/>
            <end value="2024-12-03"/>
          </validityPeriod>
          <numberOfRepeatsAllowed value="1"/>
          <quantity>
            <value value="16"/>
            <unit value="Tablet"/>
            <system value="http://snomed.info/sct"/>
            <code value="732936001"/>
          </quantity>
        </dispenseRequest>
      </MedicationRequest>
    </resource>
  </entry>
  <entry>
    <fullUrl value="https://example.com/MedicationRequest/100-3-medication-prescription-request3"/>
    <resource>
      <MedicationRequest>
        <id value="100-3-medication-prescription-request3"/>
        <meta>
          <profile value="http://profiles.ihe.net/PHARM/MPD/StructureDefinition/IHEMedicationPrescription"/>
        </meta>
        <text>
          <status value="generated"/><div xmlns="http://www.w3.org/1999/xhtml"><a name="MedicationRequest_100-3-medication-prescription-request3"> </a><p class="res-header-id"><b>Generated Narrative: MedicationRequest 100-3-medication-prescription-request3</b></p><a name="100-3-medication-prescription-request3"> </a><a name="hc100-3-medication-prescription-request3"> </a><a name="100-3-medication-prescription-request3-en-US"> </a><div style="display: inline-block; background-color: #d9e0e7; padding: 6px; margin: 4px; border: 1px solid #8da1b4; border-radius: 5px; line-height: 60%"><p style="margin-bottom: 0px"/><p style="margin-bottom: 0px">Profile: <a href="StructureDefinition-IHEMedicationPrescription.html">IHE Medication Prescription</a></p></div><p><b>identifier</b>: 100-3/3</p><p><b>groupIdentifier</b>: 100</p><p><b>status</b>: Active</p><p><b>intent</b>: Order</p><h3>Medications</h3><table class="grid"><tr><td style="display: none">-</td><td><b>Concept</b></td></tr><tr><td style="display: none">*</td><td><span title="Codes:{http://snomed.info/sct 374072009}">Prednisone 50 mg oral tablet</span></td></tr></table><p><b>subject</b>: <a href="Patient-patient1.html">Thomas Engine  Male, DoB: 1950-09-15 ( 12345)</a></p><p><b>authoredOn</b>: 2024-10-03</p><p><b>requester</b>: <a href="PractitionerRole-doctor1.html">PractitionerRole Clinical oncologist</a></p><h3>Reasons</h3><table class="grid"><tr><td style="display: none">-</td><td><b>Concept</b></td></tr><tr><td style="display: none">*</td><td><span title="Codes:{http://snomed.info/sct 109989006}">Multiple myeloma</span></td></tr></table><blockquote><p><b>dosageInstruction</b></p><p><b>timing</b>: Once per 1 day</p><h3>DoseAndRates</h3><table class="grid"><tr><td style="display: none">-</td><td><b>Dose[x]</b></td></tr><tr><td style="display: none">*</td><td>3 Tablet<span style="background: LightGoldenRodYellow"> (Details: SNOMED CT  code732936001 = 'Tablet (unit of presentation)')</span></td></tr></table></blockquote><h3>DispenseRequests</h3><table class="grid"><tr><td style="display: none">-</td><td><b>ValidityPeriod</b></td><td><b>NumberOfRepeatsAllowed</b></td><td><b>Quantity</b></td></tr><tr><td style="display: none">*</td><td>2024-10-03 --&gt; 2024-12-03</td><td>1</td><td>12 Tablet<span style="background: LightGoldenRodYellow"> (Details: SNOMED CT  code732936001 = 'Tablet (unit of presentation)')</span></td></tr></table></div>
        </text>
        <identifier>
          <value value="100-3/3"/>
        </identifier>
        <groupIdentifier>
          <value value="100"/>
        </groupIdentifier>
        <status value="active"/>
        <intent value="order"/>
        <medication>
          <concept>
            <coding>
              <system value="http://snomed.info/sct"/>
              <code value="374072009"/>
              <display value="Prednisone 50 mg oral tablet"/>
            </coding>
          </concept>
        </medication>
        <subject>
          <reference value="Patient/patient1"/>
        </subject>
        <authoredOn value="2024-10-03"/>
        <requester>
          <reference value="PractitionerRole/doctor1"/>
        </requester>
        <reason>
          <concept>
            <coding>
              <system value="http://snomed.info/sct"/>
              <code value="109989006"/>
              <display value="Multiple myeloma"/>
            </coding>
          </concept>
        </reason>
        <dosageInstruction>
          <timing>
            <repeat>
              <boundsDuration>
                <value value="4"/>
                <unit value="day"/>
                <system value="http://unitsofmeasure.org"/>
                <code value="d"/>
              </boundsDuration>
              <frequency value="1"/>
              <period value="1"/>
              <periodUnit value="d"/>
            </repeat>
          </timing>
          <doseAndRate>
            <doseQuantity>
              <value value="3"/>
              <unit value="Tablet"/>
              <system value="http://snomed.info/sct"/>
              <code value="732936001"/>
            </doseQuantity>
          </doseAndRate>
        </dosageInstruction>
        <dispenseRequest>
          <validityPeriod>
            <start value="2024-10-03"/>
            <end value="2024-12-03"/>
          </validityPeriod>
          <numberOfRepeatsAllowed value="1"/>
          <quantity>
            <value value="12"/>
            <unit value="Tablet"/>
            <system value="http://snomed.info/sct"/>
            <code value="732936001"/>
          </quantity>
        </dispenseRequest>
      </MedicationRequest>
    </resource>
  </entry>
  <entry>
    <fullUrl value="https://example.com/PractitionerRole/doctor1"/>
    <resource>
      <PractitionerRole>
        <id value="doctor1"/>
        <text>
          <status value="generated"/><div xmlns="http://www.w3.org/1999/xhtml"><a name="PractitionerRole_doctor1"> </a><p class="res-header-id"><b>Generated Narrative: PractitionerRole doctor1</b></p><a name="doctor1"> </a><a name="hcdoctor1"> </a><a name="doctor1-en-US"> </a><p><b>practitioner</b>: <a href="Practitioner-practitioner1.html">Dr Meryl Ärztin</a></p><p><b>organization</b>: <a href="Organization-organization1.html">Dr Ärztin Private Practice</a></p><p><b>code</b>: <span title="Codes:{http://snomed.info/sct 309295000}">Clinical oncologist</span></p></div>
        </text>
        <practitioner>
          <reference value="Practitioner/practitioner1"/>
          <display value="Dr Meryl Ärztin"/>
        </practitioner>
        <organization>
          <reference value="Organization/organization1"/>
          <display value="Dr Ärztin Private Practice"/>
        </organization>
        <code>
          <coding>
            <system value="http://snomed.info/sct"/>
            <code value="309295000"/>
            <display value="Clinical oncologist"/>
          </coding>
        </code>
      </PractitionerRole>
    </resource>
  </entry>
  <entry>
    <fullUrl value="https://example.com/Patient/patient1"/>
    <resource>
      <Patient>
        <id value="patient1"/>
        <text>
          <status value="generated"/><div xmlns="http://www.w3.org/1999/xhtml"><a name="Patient_patient1"> </a><p class="res-header-id"><b>Generated Narrative: Patient patient1</b></p><a name="patient1"> </a><a name="hcpatient1"> </a><a name="patient1-en-US"> </a><p style="border: 1px #661aff solid; background-color: #e6e6ff; padding: 10px;">Thomas Engine  Male, DoB: 1950-09-15 ( 12345)</p><hr/></div>
        </text>
        <identifier>
          <value value="12345"/>
        </identifier>
        <name>
          <family value="Engine"/>
          <given value="Thomas"/>
        </name>
        <gender value="male"/>
        <birthDate value="1950-09-15"/>
      </Patient>
    </resource>
  </entry>
</Bundle>